PRZ of Zn
Intensities:
Ka1: 141.227 ABS: 138.023
La1: 389.824 ABS: 25.6666
Depth(nm)	Intensity: K	Intensity K ABS	Intensity: LIII	Intensity: LIII ABS
0	1.23716	1.23684	1.43381	1.3599
3.80206	1.42048	1.41989	1.74777	1.5989
7.60412	1.47367	1.47278	1.85564	1.6241
11.4062	1.50031	1.49908	1.9085	1.59419
15.2082	1.52683	1.52525	1.98529	1.57938
19.0103	1.57958	1.57759	2.07053	1.56755
22.8124	1.60872	1.60634	2.11676	1.52526
26.6144	1.63178	1.629	2.13731	1.46443
30.4165	1.64528	1.6421	2.16553	1.41095
34.2185	1.68542	1.68178	2.23136	1.38161
38.0206	1.6998	1.69576	2.26861	1.33682
41.8226	1.7279	1.7234	2.30531	1.29124
45.6247	1.75823	1.75325	2.37245	1.26301
49.4268	1.77314	1.7677	2.38855	1.20869
53.2288	1.78882	1.78294	2.41758	1.16378
57.0309	1.82968	1.82325	2.46968	1.13041
60.8329	1.84538	1.83848	2.48921	1.08332
64.635	1.85585	1.84849	2.53988	1.05076
68.4371	1.8901	1.88217	2.55407	1.00427
72.2391	1.92766	1.91913	2.61704	0.978151
76.0412	1.94595	1.9369	2.66421	0.946768
79.8432	1.94878	1.93928	2.70094	0.912708
83.6453	1.95623	1.94625	2.73539	0.878781
87.4473	1.93795	1.92762	2.70957	0.827273
91.2494	1.99355	1.98248	2.77528	0.805625
95.0515	2.04377	2.03196	2.85229	0.787298
98.8535	2.04343	2.03116	2.88028	0.755758
102.656	2.07225	2.05934	2.92227	0.729447
106.458	2.09197	2.07846	2.96136	0.70248
110.26	2.12351	2.10932	3.00025	0.676569
114.062	2.08034	2.06597	2.9196	0.626105
117.864	2.09204	2.07712	2.95455	0.602395
121.666	2.10036	2.0849	2.98301	0.578143
125.468	2.1442	2.12794	3.04324	0.560657
129.27	2.15015	2.13335	3.07643	0.538787
133.072	2.16753	2.15011	3.10789	0.517508
136.874	2.20453	2.18632	3.14023	0.497373
140.676	2.23093	2.212	3.19934	0.481591
144.478	2.21942	2.20008	3.18025	0.455251
148.28	2.23863	2.21862	3.2096	0.436704
152.082	2.2506	2.22998	3.24363	0.419555
155.884	2.29868	2.2771	3.30685	0.406713
159.686	2.31849	2.29621	3.34395	0.391097
163.489	2.29082	2.26828	3.35844	0.373319
167.291	2.33848	2.31495	3.44385	0.364038
171.093	2.31442	2.29061	3.4037	0.341929
174.895	2.29702	2.27286	3.37772	0.322541
178.697	2.34807	2.32286	3.49966	0.317816
182.499	2.36728	2.34133	3.50932	0.302953
186.301	2.36876	2.34226	3.50841	0.288013
190.103	2.33953	2.31284	3.44412	0.26892
193.905	2.33434	2.30718	3.45539	0.256486
197.707	2.33849	2.31076	3.47064	0.244906
201.509	2.30007	2.27227	3.43586	0.230457
205.311	2.3222	2.29361	3.46285	0.220794
209.113	2.31477	2.28576	3.46582	0.210128
212.915	2.35079	2.32079	3.54751	0.204471
216.717	2.33319	2.3029	3.55626	0.194897
220.519	2.31916	2.28853	3.52751	0.183836
224.321	2.31687	2.28575	3.51812	0.174296
228.124	2.32927	2.29746	3.56028	0.167665
231.926	2.31561	2.28347	3.58581	0.160581
235.728	2.321	2.28826	3.59639	0.153105
239.53	2.31633	2.28314	3.58698	0.145157
243.332	2.33813	2.30411	3.61485	0.139117
247.134	2.32397	2.28963	3.58236	0.131059
250.936	2.29307	2.25868	3.53643	0.123024
254.738	2.26962	2.23507	3.53741	0.11698
258.54	2.2954	2.25994	3.57772	0.11244
262.342	2.27964	2.24392	3.59241	0.107385
266.144	2.25548	2.21963	3.56711	0.101376
269.946	2.28076	2.244	3.58016	0.096718
273.748	2.29772	2.26017	3.6461	0.0936489
277.55	2.33025	2.29165	3.662	0.0894066
281.352	2.28526	2.24689	3.59581	0.0834945
285.154	2.28161	2.24279	3.60517	0.0795903
288.956	2.297	2.25741	3.66782	0.07698
292.759	2.27551	2.23578	3.66838	0.0731721
296.561	2.23847	2.19889	3.64626	0.0691711
300.363	2.22348	2.18367	3.62968	0.0654694
304.165	2.20973	2.16967	3.60369	0.0617985
307.967	2.19102	2.1508	3.62347	0.0590646
311.769	2.16631	2.12606	3.56461	0.055234
315.571	2.15161	2.11116	3.55202	0.0523214
319.373	2.16526	2.12407	3.6017	0.0504395
323.175	2.14713	2.10581	3.59259	0.0478701
326.977	2.14932	2.10748	3.60338	0.045635
330.779	2.12263	2.08083	3.5869	0.0431774
334.581	2.11683	2.07468	3.6086	0.0413042
338.383	2.10152	2.0592	3.59773	0.039147
342.185	2.09564	2.05297	3.57024	0.03694
345.987	2.10092	2.05768	3.57134	0.035125
349.789	2.09605	2.05244	3.56005	0.0332892
353.591	2.05627	2.01303	3.52442	0.0313299
357.394	2.05091	2.00733	3.54282	0.0299441
361.196	2.01786	1.97453	3.46336	0.0278336
364.998	2.00865	1.96508	3.44935	0.0263513
368.8	2.01847	1.97423	3.48838	0.0253356
372.602	2.04461	1.99934	3.53711	0.0244301
376.404	2.03015	1.98476	3.50246	0.0230018
380.206	2.02741	1.98163	3.50117	0.0218598
384.008	2.03432	1.98793	3.51814	0.0208847
387.81	2.01235	1.96601	3.49818	0.0197346
391.612	2.01091	1.96416	3.48448	0.0186937
395.414	1.98323	1.93668	3.47064	0.0176998
399.216	1.97288	1.92614	3.50541	0.0170016
403.018	1.93152	1.88533	3.42184	0.0157749
406.82	1.8897	1.84408	3.40329	0.0149139
410.622	1.92601	1.8791	3.46821	0.014451
414.424	1.90006	1.85335	3.47295	0.0137584
418.226	1.88856	1.84172	3.41493	0.0128654
422.029	1.91516	1.86724	3.47887	0.0124589
425.831	1.90789	1.85973	3.47892	0.0118426
429.633	1.85993	1.81257	3.45646	0.0111911
433.435	1.8373	1.7901	3.43781	0.0105812
437.237	1.80839	1.76154	3.37653	0.00988329
441.039	1.77314	1.7268	3.29544	0.00916531
444.841	1.78676	1.73968	3.36304	0.00889283
448.643	1.78719	1.7397	3.3349	0.00838427
452.445	1.7587	1.71158	3.29532	0.0078808
456.247	1.72869	1.68199	3.2565	0.00739944
460.049	1.70375	1.65735	3.25315	0.00702969
463.851	1.70221	1.65548	3.25914	0.00669629
467.653	1.66812	1.62195	3.21594	0.00628106
471.455	1.67821	1.63139	3.24082	0.00601953
475.257	1.62945	1.58363	3.1484	0.00555754
479.059	1.6372	1.5908	3.18487	0.00534389
482.861	1.63791	1.59112	3.18588	0.00508423
486.664	1.61477	1.5683	3.14015	0.0047645
490.466	1.62292	1.57585	3.19207	0.00460552
494.268	1.60543	1.55851	3.17013	0.0043475
498.07	1.6066	1.5593	3.19497	0.00416574
501.872	1.58227	1.53533	3.16184	0.00392033
505.674	1.56927	1.52237	3.09199	0.00364486
509.476	1.52317	1.47731	3.08071	0.00345012
513.278	1.51746	1.47144	3.08783	0.00328868
517.08	1.51393	1.46768	3.09424	0.00313389
520.882	1.5241	1.47721	3.09842	0.00298301
524.684	1.49768	1.45127	3.10668	0.00284363
528.486	1.45505	1.40964	3.02082	0.00262917
532.288	1.45083	1.40523	2.99256	0.00247698
536.09	1.43753	1.39204	2.99145	0.00235351
539.892	1.43106	1.38545	3.00419	0.00224641
543.694	1.41377	1.3684	2.97773	0.00211729
547.496	1.42675	1.38065	2.99014	0.00202187
551.299	1.38431	1.33928	2.92074	0.00187731
555.101	1.41356	1.36727	2.96657	0.00181321
558.903	1.36095	1.31608	2.87619	0.00167087
562.705	1.33349	1.28923	2.86649	0.00158326
566.507	1.2966	1.25328	2.87961	0.00151253
570.309	1.28621	1.24296	2.82853	0.00141235
574.111	1.27515	1.23199	2.80563	0.00133213
577.913	1.30224	1.25788	2.85479	0.00128815
581.715	1.28279	1.23881	2.83543	0.00121675
585.517	1.29387	1.24922	2.85459	0.0011645
589.319	1.24549	1.20224	2.81197	0.00109091
593.121	1.26773	1.22342	2.84155	0.00104746
596.923	1.26735	1.22279	2.84525	0.000997361
600.725	1.23036	1.18683	2.79719	0.000932367
604.527	1.19878	1.1561	2.76438	0.00087593
608.329	1.19024	1.14761	2.74246	0.000826288
612.131	1.16791	1.12581	2.71744	0.000778436
615.934	1.15757	1.1156	2.71872	0.00074024
619.736	1.13554	1.09412	2.6497	0.000686117
623.538	1.11744	1.07643	2.62346	0.000645714
627.34	1.07724	1.03747	2.58414	0.000604683
631.142	1.09417	1.05353	2.6139	0.000581589
634.944	1.09211	1.05132	2.65735	0.000562257
638.746	1.06899	1.02882	2.57792	0.000518659
642.548	1.04536	1.00586	2.54411	0.000486471
646.35	1.03571	0.996345	2.5015	0.000454694
650.152	1.02985	0.990483	2.51083	0.000433935
653.954	1.00611	0.967428	2.47959	0.000407474
657.756	0.970635	0.933102	2.45699	0.000383771
661.558	0.967391	0.929776	2.44611	0.000363335
665.36	0.963242	0.925578	2.43503	0.00034392
669.162	0.960266	0.922508	2.41294	0.000324032
672.964	0.940883	0.903682	2.40146	0.000306501
676.766	0.946177	0.908561	2.39513	0.000290774
680.569	0.916753	0.880103	2.36389	0.000272634
684.371	0.913329	0.876619	2.38271	0.000261409
688.173	0.884995	0.849232	2.33067	0.000243112
691.975	0.88737	0.851316	2.3136	0.000229373
695.777	0.867999	0.832542	2.27238	0.000214188
699.579	0.866491	0.830909	2.22455	0.000199407
703.381	0.85116	0.816021	2.22571	0.000189667
707.183	0.830481	0.796014	2.2359	0.000181134
710.985	0.826963	0.792463	2.25749	0.000173849
714.787	0.822445	0.787954	2.26134	0.000165616
718.589	0.80798	0.773919	2.2699	0.000158022
722.391	0.803336	0.769296	2.24482	0.000148601
726.193	0.803218	0.769009	2.20906	0.000139
729.995	0.784712	0.751121	2.19977	0.000131648
733.797	0.743862	0.711857	2.11289	0.000120181
737.599	0.74717	0.714859	2.10942	0.000114051
741.401	0.74223	0.709973	2.1064	0.000108293
745.204	0.712924	0.681785	2.0961	0.000102479
749.006	0.716222	0.684785	2.05687	9.56273e-005
752.808	0.70993	0.678613	2.03416	8.98747e-005
756.61	0.706762	0.675433	2.02996	8.52927e-005
760.412	0.697393	0.666326	2.00141	7.9939e-005
764.214	0.673355	0.643213	1.96726	7.47058e-005
768.016	0.666592	0.636607	1.88758	6.81373e-005
771.818	0.656793	0.627107	1.88028	6.45299e-005
775.62	0.663725	0.633581	1.92156	6.26839e-005
779.422	0.652128	0.62237	1.90788	5.9193e-005
783.224	0.627526	0.598755	1.819	5.36579e-005
787.026	0.635165	0.605906	1.86863	5.24021e-005
790.828	0.627489	0.598448	1.83784	4.90039e-005
794.63	0.610582	0.58219	1.81543	4.60106e-005
798.432	0.591236	0.563616	1.74905	4.21541e-005
802.234	0.580485	0.553242	1.74686	4.0027e-005
806.036	0.573199	0.546173	1.72388	3.75467e-005
809.839	0.561774	0.535166	1.6702	3.45865e-005
813.641	0.549264	0.52313	1.68247	3.3137e-005
817.443	0.544477	0.518452	1.6642	3.11515e-005
821.245	0.543172	0.517092	1.7132	3.04919e-005
825.047	0.526597	0.501199	1.70512	2.88596e-005
828.849	0.530135	0.504451	1.69751	2.72993e-005
832.651	0.506917	0.482249	1.66911	2.55313e-005
836.453	0.500468	0.476004	1.66132	2.41623e-005
840.255	0.489053	0.465042	1.59277	2.20195e-005
844.057	0.486436	0.462448	1.60034	2.10304e-005
847.859	0.476725	0.453115	1.58315	1.97906e-005
851.661	0.471255	0.447814	1.56152	1.85594e-005
855.463	0.459093	0.436156	1.52427	1.72142e-005
859.265	0.451328	0.428682	1.53473	1.64856e-005
863.067	0.429655	0.408003	1.45262	1.483e-005
866.869	0.414	0.393048	1.44088	1.39833e-005
870.671	0.407027	0.38634	1.44196	1.33074e-005
874.473	0.412167	0.39113	1.45571	1.27736e-005
878.276	0.405028	0.384267	1.42675	1.18987e-005
882.078	0.400402	0.379793	1.39829	1.10899e-005
885.88	0.395238	0.37481	1.38377	1.04331e-005
889.682	0.409568	0.388312	1.39305	9.9905e-006
893.484	0.393163	0.372673	1.37253	9.35488e-006
897.286	0.377599	0.357839	1.33723	8.66669e-006
901.088	0.355666	0.336976	1.30033	8.01206e-006
904.89	0.339398	0.321491	1.26843	7.42997e-006
908.692	0.338694	0.32075	1.23244	6.86215e-006
912.494	0.34271	0.324481	1.24489	6.59131e-006
916.296	0.334379	0.316521	1.25186	6.30266e-006
920.098	0.32738	0.309825	1.21866	5.83145e-006
923.9	0.325869	0.308324	1.24292	5.65242e-006
927.702	0.303919	0.287491	1.21066	5.23779e-006
931.504	0.300295	0.283999	1.18474	4.87374e-006
935.306	0.28853	0.27281	1.15307	4.50878e-006
939.108	0.29258	0.276576	1.12786	4.19215e-006
942.911	0.284036	0.268439	1.1023	3.89671e-006
946.713	0.274886	0.259732	1.0833	3.63961e-006
950.515	0.282977	0.267315	1.09603	3.50022e-006
954.317	0.285067	0.26923	1.10801	3.36629e-006
958.119	0.263844	0.249131	1.06351	3.07264e-006
961.921	0.256192	0.241848	1.06937	2.93612e-006
965.723	0.262772	0.248003	1.04973	2.7395e-006
969.525	0.247101	0.23316	1.00831	2.50089e-006
973.327	0.23996	0.22637	0.996341	2.34997e-006
977.129	0.239121	0.225529	0.983386	2.20648e-006
980.931	0.234363	0.220991	1.01697	2.16898e-006
984.733	0.226248	0.213289	0.992297	2.01057e-006
988.535	0.220879	0.208181	0.943203	1.81829e-006
992.337	0.222044	0.209232	0.952497	1.74613e-006
996.139	0.220462	0.207693	0.935818	1.63014e-006
999.941	0.22191	0.209011	0.969715	1.60562e-006
1003.74	0.216956	0.204299	0.953802	1.50285e-006
1007.55	0.204859	0.192863	0.921618	1.37948e-006
1011.35	0.208778	0.196509	0.946976	1.34847e-006
1015.15	0.200073	0.188272	0.923302	1.25002e-006
1018.95	0.190529	0.17925	0.876796	1.12853e-006
1022.75	0.188257	0.177071	0.866316	1.05946e-006
1026.56	0.18753	0.176348	0.870612	1.01264e-006
1030.36	0.18372	0.172726	0.875396	9.68402e-007
1034.16	0.180992	0.170123	0.86243	9.06626e-007
1037.96	0.174317	0.163811	0.857111	8.56533e-007
1041.76	0.168587	0.158391	0.816074	7.75539e-007
1045.57	0.162235	0.152388	0.843359	7.61729e-007
1049.37	0.162094	0.152221	0.801467	6.88792e-007
1053.17	0.162976	0.153014	0.774709	6.32657e-007
1056.97	0.151556	0.14226	0.766104	5.94679e-007
1060.77	0.145626	0.136663	0.761055	5.61951e-007
1064.58	0.145962	0.136947	0.77326	5.42755e-007
1068.38	0.14446	0.135507	0.758772	5.06463e-007
1072.18	0.143134	0.134232	0.727277	4.61402e-007
1075.98	0.145131	0.136074	0.748566	4.51338e-007
1079.78	0.133549	0.125187	0.694718	3.98393e-007
1083.59	0.127725	0.1197	0.687974	3.7525e-007
1087.39	0.127739	0.119686	0.671279	3.47888e-007
1091.19	0.126333	0.118342	0.667923	3.29081e-007
1094.99	0.125761	0.11778	0.674726	3.16158e-007
1098.79	0.121274	0.113551	0.670237	2.98648e-007
1102.6	0.120527	0.112826	0.684943	2.9007e-007
1106.4	0.113638	0.106353	0.663594	2.67109e-007
1110.2	0.113263	0.105978	0.64368	2.4639e-007
1114	0.105471	0.0986651	0.626667	2.28015e-007
1117.81	0.102418	0.095787	0.614328	2.12573e-007
1121.61	0.105502	0.0986491	0.636324	2.09344e-007
1125.41	0.103732	0.0969721	0.604381	1.88979e-007
1129.21	0.101086	0.0944779	0.565384	1.68185e-007
1133.01	0.0947151	0.0885025	0.551908	1.56073e-007
1136.82	0.0906137	0.0846513	0.539887	1.45211e-007
1140.62	0.0841859	0.078628	0.533558	1.36327e-007
1144.42	0.084276	0.0786945	0.521327	1.26676e-007
1148.22	0.0852666	0.0796012	0.508485	1.17466e-007
1152.02	0.0814067	0.0759803	0.495758	1.08805e-007
1155.83	0.0794695	0.0741557	0.507582	1.05923e-007
1159.63	0.0769224	0.0717625	0.508438	1.00926e-007
1163.43	0.0756664	0.070575	0.488687	9.22185e-008
1167.23	0.0736004	0.0686322	0.495485	8.8875e-008
1171.03	0.0726205	0.0677033	0.502729	8.58168e-008
1174.84	0.0729027	0.0679508	0.481663	7.81493e-008
1178.64	0.073027	0.0680513	0.460639	7.10289e-008
1182.44	0.0715718	0.0666798	0.46438	6.8059e-008
1186.24	0.0693434	0.0645894	0.452131	6.30535e-008
1190.04	0.0627978	0.0584792	0.43215	5.72584e-008
1193.85	0.0658829	0.0613378	0.458596	5.77515e-008
1197.65	0.0612368	0.0569993	0.426235	5.10746e-008
1201.45	0.0634148	0.059013	0.425676	4.84592e-008
1205.25	0.0633745	0.0589624	0.408194	4.41932e-008
1209.05	0.0599571	0.055771	0.40474	4.16888e-008
1212.86	0.0593464	0.0551894	0.393494	3.84962e-008
1216.66	0.0600193	0.0558028	0.414935	3.86198e-008
1220.46	0.0570856	0.053063	0.417695	3.6971e-008
1224.26	0.0608806	0.0565778	0.40943	3.44374e-008
1228.06	0.0510916	0.0474698	0.384207	3.07222e-008
1231.87	0.0473622	0.0439946	0.362902	2.7578e-008
1235.67	0.0450722	0.041858	0.363727	2.62699e-008
1239.47	0.0428374	0.0397735	0.331177	2.27471e-008
1243.27	0.0460922	0.0427862	0.358793	2.34585e-008
1247.08	0.0457742	0.0424813	0.349799	2.17267e-008
1250.88	0.0432915	0.0401681	0.378209	2.23517e-008
1254.68	0.0404321	0.0375067	0.346129	1.94438e-008
1258.48	0.0368704	0.0341943	0.326884	1.74238e-008
1262.28	0.0378103	0.0350582	0.332487	1.68764e-008
1266.09	0.0384565	0.0356491	0.31212	1.50556e-008
1269.89	0.0359061	0.0332772	0.321088	1.4721e-008
1273.69	0.0336704	0.0311981	0.302665	1.31916e-008
1277.49	0.0332628	0.0308137	0.295237	1.22405e-008
1281.29	0.0356384	0.0330071	0.29479	1.16193e-008
1285.1	0.0342546	0.0317184	0.273329	1.02526e-008
1288.9	0.0332613	0.0307917	0.283637	1.0105e-008
1292.7	0.0334182	0.0309295	0.265936	9.01465e-009
1296.5	0.0323903	0.0299716	0.257523	8.29719e-009
1300.3	0.0287433	0.0265905	0.262745	8.03849e-009
1304.11	0.0263283	0.0243509	0.249838	7.27228e-009
1307.91	0.0260133	0.0240542	0.24118	6.67119e-009
1311.71	0.0259847	0.0240222	0.250933	6.60489e-009
1315.51	0.0251134	0.0232115	0.236243	5.90953e-009
1319.31	0.0259602	0.0239891	0.25158	5.99016e-009
1323.12	0.0246199	0.022745	0.229652	5.19347e-009
1326.92	0.0230597	0.0212987	0.213135	4.58358e-009
1330.72	0.020882	0.0192829	0.204792	4.18355e-009
1334.52	0.0191689	0.0176969	0.18359	3.56851e-009
1338.32	0.0198681	0.0183384	0.18587	3.43237e-009
1342.13	0.0203669	0.0187947	0.177328	3.11655e-009
1345.93	0.0191737	0.0176896	0.185817	3.10326e-009
1349.73	0.0186235	0.0171782	0.173782	2.76133e-009
1353.53	0.0167672	0.0154623	0.178069	2.68864e-009
1357.33	0.0174538	0.0160917	0.16226	2.32925e-009
1361.14	0.0182359	0.0168089	0.161478	2.20193e-009
1364.94	0.0169306	0.0156021	0.163928	2.12483e-009
1368.74	0.0148024	0.013638	0.157649	1.94657e-009
1372.54	0.0137429	0.0126589	0.159602	1.87133e-009
1376.35	0.0128402	0.0118247	0.143062	1.59462e-009
1380.15	0.0129923	0.0119621	0.143877	1.5245e-009
1383.95	0.0129042	0.0118783	0.141121	1.42297e-009
1387.75	0.012442	0.0114503	0.13635	1.3067e-009
1391.55	0.0121527	0.0111813	0.144404	1.3148e-009
1395.36	0.0125593	0.0115526	0.1544	1.33526e-009
1399.16	0.0128424	0.0118107	0.146922	1.21045e-009
1402.96	0.0120117	0.0110443	0.1393	1.09161e-009
1406.76	0.0118017	0.0108488	0.12842	9.56546e-010
1410.56	0.0115858	0.0106476	0.131919	9.3309e-010
1414.37	0.0110303	0.0101349	0.130181	8.76148e-010
1418.17	0.0106957	0.00982532	0.126332	8.08018e-010
1421.97	0.00953064	0.00875313	0.120395	7.32687e-010
1425.77	0.00821941	0.00754713	0.114681	6.63067e-010
1429.57	0.00708943	0.00650792	0.114067	6.26354e-010
1433.38	0.00721778	0.00662424	0.130547	6.81426e-010
1437.18	0.00748188	0.00686506	0.127553	6.33571e-010
1440.98	0.00816596	0.00749119	0.125425	5.92637e-010
1444.78	0.00830506	0.00761704	0.1127	5.06644e-010
1448.58	0.00794063	0.00728121	0.120379	5.14365e-010
1452.39	0.00738736	0.00677237	0.107738	4.37289e-010
1456.19	0.0064637	0.00592426	0.099036	3.82742e-010
1459.99	0.00585461	0.00536466	0.0837188	3.07121e-010
1463.79	0.00574554	0.00526343	0.0938699	3.27383e-010
1467.59	0.0055571	0.00508974	0.0869335	2.87708e-010
1471.4	0.00498918	0.0045686	0.0979766	3.09145e-010
1475.2	0.00481192	0.00440522	0.080862	2.4267e-010
1479	0.00472524	0.00432489	0.0772369	2.1998e-010
1482.8	0.00565899	0.00517839	0.0889391	2.40755e-010
1486.6	0.00471754	0.00431593	0.0864126	2.22824e-010
1490.41	0.00540027	0.00493943	0.0941125	2.30358e-010
1494.21	0.00521841	0.00477194	0.0906011	2.10746e-010
1498.01	0.00476143	0.00435312	0.0983456	2.17738e-010
1501.81	0.00422845	0.00386488	0.0841103	1.7707e-010
1505.62	0.00373427	0.00341253	0.0838798	1.68066e-010
1509.42	0.00349035	0.00318897	0.0946839	1.80315e-010
1513.22	0.00319679	0.00291997	0.0750827	1.35607e-010
1517.02	0.00311039	0.00284036	0.0676818	1.16337e-010
1520.82	0.00301032	0.00274843	0.0665597	1.08754e-010
1524.63	0.00281729	0.00257152	0.0672164	1.04527e-010
1528.43	0.00278579	0.00254215	0.0644718	9.53413e-011
1532.23	0.0027189	0.00248058	0.0644358	9.04918e-011
1536.03	0.00315669	0.00287934	0.0708601	9.46341e-011
1539.83	0.00294902	0.00268941	0.0647662	8.23087e-011
1543.64	0.00302119	0.00275462	0.063575	7.69081e-011
1547.44	0.00296092	0.00269906	0.0625333	7.18467e-011
1551.24	0.00292442	0.00266512	0.055164	6.02251e-011
1555.04	0.00248574	0.00226483	0.0519893	5.3912e-011
1558.84	0.00276792	0.00252138	0.044825	4.42845e-011
1562.65	0.00211789	0.00192893	0.0367274	3.45377e-011
1566.45	0.0020966	0.00190899	0.0412822	3.67963e-011
1570.25	0.00203952	0.00185666	0.0482747	4.09553e-011
1574.05	0.00231612	0.00210792	0.0480896	3.87859e-011
1577.85	0.00190213	0.00173069	0.0418002	3.20344e-011
1581.66	0.00179538	0.00163318	0.038672	2.82e-011
1585.46	0.00192544	0.00175112	0.0374392	2.59168e-011
1589.26	0.0017495	0.00159078	0.0370468	2.43858e-011
1593.06	0.0018598	0.0016907	0.0314877	1.97085e-011
1596.86	0.00168786	0.001534	0.0315112	1.87716e-011
1600.67	0.00164205	0.00149199	0.0316685	1.78724e-011
1604.47	0.00164246	0.0014921	0.037046	1.99232e-011
1608.27	0.00192562	0.00174888	0.0415612	2.12541e-011
1612.07	0.00171495	0.0015572	0.0381433	1.85419e-011
1615.87	0.00177652	0.00161271	0.0360484	1.66662e-011
1619.68	0.00161082	0.00146195	0.040597	1.77998e-011
1623.48	0.00155897	0.00141462	0.0406693	1.70301e-011
1627.28	0.00146453	0.00132863	0.0372633	1.4795e-011
1631.08	0.0014485	0.00131381	0.0414097	1.56443e-011
1634.89	0.00120703	0.0010946	0.0327847	1.17911e-011
1638.69	0.00117869	0.00106867	0.0395468	1.34916e-011
1642.49	0.00111818	0.00101347	0.0363155	1.17849e-011
1646.29	0.00113933	0.00103239	0.0277407	8.54678e-012
1650.09	0.00140946	0.00127693	0.0318359	9.34062e-012
1653.9	0.00149906	0.00135782	0.0313199	8.73974e-012
1657.7	0.00141544	0.0012818	0.0339887	9.00877e-012
1661.5	0.00105628	0.000956315	0.0302575	7.64599e-012
1665.3	0.00101127	0.000915308	0.025716	6.16466e-012
1669.1	0.000985744	0.000892037	0.0317565	7.22742e-012
1672.91	0.0011547	0.0010447	0.0423044	9.15415e-012
1676.71	0.00115515	0.00104482	0.0376342	7.75857e-012
1680.51	0.00139908	0.00126517	0.0418522	8.19566e-012
1684.31	0.00142598	0.00128922	0.0360798	6.72088e-012
1688.11	0.000960376	0.000868087	0.0372512	6.58975e-012
1691.92	0.000772092	0.000697764	0.0298158	5.02725e-012
1695.72	0.00077902	0.000703864	0.0220947	3.54085e-012
1699.52	0.000736663	0.000665424	0.0220278	3.35429e-012
1703.32	0.00074249	0.00067052	0.0207505	3.00535e-012
1707.12	0.000729681	0.000658841	0.0170983	2.35241e-012
1710.93	0.000741162	0.000669056	0.0184491	2.4234e-012
1714.73	0.000725007	0.000654302	0.0119476	1.48885e-012
1718.53	0.000696955	0.000628855	0.0125745	1.48519e-012
1722.33	0.000729989	0.00065849	0.0168217	1.89202e-012
1726.13	0.000697609	0.000629109	0.0147552	1.57142e-012
1729.94	0.000684334	0.000617033	0.0138164	1.40528e-012
1733.74	0.000671566	0.000605399	0.0172946	1.67142e-012
1737.54	0.000602284	0.000542799	0.0117796	1.08456e-012
1741.34	0.000566054	0.000510043	0.0102759	8.96916e-013
1745.14	0.000572786	0.000515951	0.0101196	8.38459e-013
1748.95	0.000568885	0.000512326	0.0127379	1.00058e-012
1752.75	0.00053867	0.000485072	0.0119344	8.9755e-013
1756.55	0.000528974	0.000476191	0.00952376	6.78193e-013
1760.35	0.000522199	0.000469994	0.0103351	7.01194e-013
1764.16	0.000502928	0.00045254	0.00899456	5.82884e-013
1767.96	0.000562196	0.00050576	0.00626346	3.84885e-013
1771.76	0.00057106	0.000513616	0.00876158	5.10264e-013
1775.56	0.000593848	0.000533971	0.00831699	4.60262e-013
1779.36	0.000602053	0.000541223	0.00955202	5.00993e-013
1783.17	0.000566367	0.000509034	0.00904917	4.54326e-013
1786.97	0.000664392	0.000597044	0.00695631	3.32679e-013
1790.77	0.000744994	0.000669309	0.00814008	3.69332e-013
1794.57	0.000834586	0.000749625	0.00725785	3.14196e-013
1798.37	0.000423582	0.000380353	0.00597641	2.43211e-013
1802.18	0.000378366	0.000339674	0.00607913	2.36406e-013
1805.98	0.000434154	0.000389683	0.00753781	2.78883e-013
1809.78	0.000561213	0.000503598	0.00664226	2.3423e-013
1813.58	0.000523265	0.000469435	0.00548825	1.83574e-013
1817.38	0.000479185	0.000429801	0.00443504	1.41087e-013
1821.19	0.000316406	0.000283736	0.00556463	1.68121e-013
1824.99	0.000251344	0.000225349	0.00519275	1.49678e-013
1828.79	0.000216663	0.000194228	0.00549323	1.50045e-013
1832.59	0.000203453	0.00018234	0.00757257	1.97021e-013
1836.39	0.00020432	0.000183057	0.00642908	1.59071e-013
1840.2	9.47727e-005	8.48952e-005	0.00671813	1.57915e-013
1844	6.5093e-005	5.82921e-005	0.00858733	1.92078e-013
1847.8	5.86716e-005	5.25296e-005	0.00407435	8.67368e-014
1851.6	5.38827e-005	4.82255e-005	0.00344155	6.89681e-014
1855.4	5.1602e-005	4.61768e-005	0.00433632	8.27335e-014
1859.21	5.10069e-005	4.56422e-005	0.00343619	6.25665e-014
1863.01	5.06469e-005	4.53032e-005	0.00355926	6.17514e-014
1866.81	4.9634e-005	4.43901e-005	0.00347619	5.77515e-014
1870.61	4.48743e-005	4.01246e-005	0.00239556	3.7658e-014
1874.41	4.29685e-005	3.84092e-005	0.00299609	4.44419e-014
1878.22	3.63042e-005	3.24451e-005	0.00177252	2.54544e-014
1882.02	3.35849e-005	3.00079e-005	0.00154246	2.07637e-014
1885.82	3.20238e-005	2.86054e-005	0.00164458	2.08485e-014
1889.62	3.08918e-005	2.75897e-005	0.00174491	2.13864e-014
1893.43	3.04856e-005	2.72203e-005	0.00164332	1.91371e-014
1897.23	0.000395201	0.000352279	0.0955963	3.33398e-013
